timestamp,frame_file,accel_x,accel_y,accel_z,gyro_x,gyro_y,gyro_z,mag_x,mag_y,mag_z,temp_mpu,temp_bmp,pressure,altitude_bmp,motor_left_dir,motor_left_speed,motor_right_dir,motor_right_speed,servo1_angle,servo2_angle,e_stop_active
1747829106.8346367,1747829106.835.jpg,0.108642578125,-0.085693359375,1.066162109375,-0.022900763358778626,0.2748091603053435,1.1297709923664123,-174.8,10.120000000000001,0.92,27.777058823529412,26.465798666681888,0,0,2,255,1,255,90,85,0
1747829107.053653,1747829107.054.jpg,0.1015625,-0.0673828125,1.056640625,1.0534351145038168,-0.35877862595419846,1.1374045801526718,-174.8,11.040000000000001,0.92,27.68294117647059,26.452942050786277,0,0,1,200,2,255,90,85,0
1747829107.15765,1747829107.158.jpg,0.101806640625,-0.074462890625,1.05712890625,0.732824427480916,-0.08396946564885496,1.0381679389312977,-174.8,11.040000000000001,0.92,27.777058823529412,26.459370486683987,0,0,2,255,1,60,90,85,0
1747829107.258875,1747829107.259.jpg,0.0986328125,-0.079833984375,1.047607421875,0.4122137404580153,1.8778625954198473,1.297709923664122,-174.8,11.040000000000001,0.92,27.73,26.459370486683987,0,0,0,0,0,0,90,85,0
1747829107.368306,1747829107.368.jpg,0.09423828125,-0.08447265625,1.0546875,0.6412213740458015,0.015267175572519083,1.3587786259541985,-174.8,11.040000000000001,1.84,27.73,26.47865425924749,0,0,1,100,1,100,90,85,0
1747829107.4693046,1747829107.469.jpg,0.102783203125,-0.064697265625,1.052978515625,0.24427480916030533,0.2748091603053435,1.1603053435114503,-174.8,11.040000000000001,1.84,27.73,26.459370486683987,0,0,0,0,0,0,90,85,0
1747829107.5793538,1747829107.579.jpg,0.10009765625,-0.072021484375,1.058837890625,0.29770992366412213,0.21374045801526717,1.381679389312977,-174.8,11.040000000000001,1.84,27.73,26.465798666681888,0,0,1,100,1,100,90,85,0
1747829107.6802518,1747829107.680.jpg,0.09912109375,-0.077880859375,1.05322265625,0.5954198473282443,1.9465648854961832,1.2213740458015268,-174.8,11.040000000000001,0.92,27.777058823529412,26.465798666681888,0,0,1,255,1,255,90,85,0
1747829107.7821276,1747829107.782.jpg,0.095947265625,-0.0771484375,1.05908203125,0.6564885496183206,-0.31297709923664124,1.1526717557251909,-174.8,11.040000000000001,0.92,27.824117647058827,26.465798666681888,0,0,1,200,1,200,90,85,0
1747829107.891079,1747829107.891.jpg,0.089599609375,-0.07666015625,1.051513671875,0.6641221374045801,0.061068702290076333,1.083969465648855,-175.72,10.120000000000001,0.92,27.73,26.465798666681888,0,0,0,0,0,0,90,90,0
1747829107.99286,1747829107.993.jpg,0.09375,-0.078857421875,1.067138671875,0.8015267175572519,-0.16030534351145037,1.1984732824427482,-174.8,11.040000000000001,0.92,27.777058823529412,26.459370486683987,0,0,0,0,0,0,90,90,0
1747829108.102601,1747829108.103.jpg,0.08984375,-0.0703125,1.054931640625,0.21374045801526717,1.9312977099236641,1.2366412213740459,-174.8,11.040000000000001,0.92,27.68294117647059,26.465798666681888,0,0,0,0,0,0,90,90,0
1747829108.2041528,1747829108.204.jpg,0.099609375,-0.077392578125,1.07666015625,0.35877862595419846,-0.16793893129770993,1.16793893129771,-174.8,11.040000000000001,0.92,27.777058823529412,26.465798666681888,0,0,0,1,0,0,90,90,0
1747829108.31331,1747829108.313.jpg,0.091064453125,-0.070556640625,1.0576171875,0.4732824427480916,1.9312977099236641,1.2213740458015268,-174.8,11.040000000000001,0.92,27.777058823529412,26.465798666681888,0,0,0,20,0,0,90,90,0
1747829108.4141357,1747829108.414.jpg,0.102783203125,-0.07177734375,1.053955078125,0.5114503816793893,-0.2824427480916031,1.282442748091603,-175.72,11.040000000000001,0.92,27.777058823529412,26.47865425924749,0,0,0,0,0,0,90,90,0
1747829108.5160313,1747829108.516.jpg,0.100341796875,-0.07470703125,1.0517578125,0.6793893129770993,1.9236641221374047,1.2213740458015268,-174.8,10.120000000000001,0.92,27.777058823529412,26.47865425924749,0,0,0,0,0,0,90,90,0
1747829108.7845764,1747829108.785.jpg,0.096435546875,-0.07275390625,1.0546875,0.7480916030534351,0.05343511450381679,1.213740458015267,-175.72,11.040000000000001,0.92,27.68294117647059,26.4722265908473,0,0,0,0,0,0,90,90,1
1747829108.8853605,1747829108.885.jpg,0.0947265625,-0.07666015625,1.0537109375,0.6030534351145038,-0.05343511450381679,1.1068702290076335,-174.8,11.040000000000001,0.92,27.824117647058827,26.465798666681888,0,0,0,0,0,0,90,90,1
1747829108.9859931,1747829108.986.jpg,0.10595703125,-0.07177734375,1.06103515625,0.4122137404580153,0.08396946564885496,1.2213740458015268,-174.8,11.040000000000001,0.92,27.777058823529412,26.465798666681888,0,0,0,0,0,0,90,90,1
1747829109.1871061,1747829109.187.jpg,0.097412109375,-0.076171875,1.047119140625,0.6183206106870229,-0.13740458015267176,1.1068702290076335,-174.8,11.040000000000001,0.92,27.777058823529412,26.47865425924749,0,0,0,0,0,0,90,90,1
1747829109.287966,1747829109.288.jpg,0.098876953125,-0.076416015625,1.070068359375,0.7557251908396947,-0.05343511450381679,1.015267175572519,-174.8,11.040000000000001,0.92,27.635882352941177,26.4722265908473,0,0,0,0,0,0,90,90,1
1747829109.3882625,1747829109.388.jpg,0.096923828125,-0.075927734375,1.055908203125,0.4198473282442748,-1.9083969465648856,0.9923664122137404,-175.72,11.040000000000001,0.92,27.73,26.47865425924749,0,0,0,0,0,0,90,90,1
1747829109.5894709,1747829109.589.jpg,0.095703125,-0.0751953125,1.0546875,0.8320610687022901,-1.9465648854961832,1.0305343511450382,-175.72,11.040000000000001,0.92,27.73,26.47865425924749,0,0,0,0,0,0,90,90,1
1747829109.6902003,1747829109.690.jpg,0.09912109375,-0.07177734375,1.06298828125,0.6946564885496184,-0.183206106870229,1.3053435114503817,-175.72,10.120000000000001,0.92,27.73,26.47865425924749,0,0,0,0,0,0,90,90,1
1747829109.790629,1747829109.791.jpg,0.095947265625,-0.073486328125,1.05712890625,0.549618320610687,-0.030534351145038167,1.1603053435114503,-174.8,11.040000000000001,0.92,27.73,26.4722265908473,0,0,0,0,0,0,90,90,1
1747829109.9917133,1747829109.992.jpg,0.093017578125,-0.080810546875,1.062255859375,0.7251908396946565,0.007633587786259542,1.1603053435114503,-174.8,10.120000000000001,0.92,27.777058823529412,26.465798666681888,0,0,0,0,0,0,90,90,1
1747829110.0924938,1747829110.092.jpg,0.100830078125,-0.071533203125,1.049072265625,0.6259541984732825,-0.11450381679389313,1.2595419847328244,-174.8,11.040000000000001,0.92,27.68294117647059,26.47865425924749,0,0,0,0,0,0,90,90,1
1747829110.192907,1747829110.193.jpg,0.095458984375,-0.09375,1.054443359375,0.48091603053435117,0.0,1.3206106870229009,-175.72,11.040000000000001,0.92,27.68294117647059,26.47865425924749,0,0,0,0,0,0,90,90,1
1747829110.2993128,1747829110.299.jpg,0.099853515625,-0.076904296875,1.0673828125,0.6717557251908397,1.916030534351145,1.1908396946564885,-174.8,11.040000000000001,0.92,27.87117647058824,26.4722265908473,0,0,1,100,1,100,90,85,0
1747829110.439944,1747829110.440.jpg,0.0830078125,-0.064453125,1.003662109375,1.916030534351145,1.9389312977099236,1.450381679389313,-174.8,5.5200000000000005,0.92,27.87117647058824,26.4722265908473,0,0,1,100,1,100,90,85,0
1747829110.5956078,1747829110.596.jpg,0.105224609375,-0.05615234375,0.986328125,1.3358778625954197,0.9465648854961832,0.40458015267175573,-172.96,8.280000000000001,0.92,27.777058823529412,26.465798666681888,0,0,1,100,1,100,90,85,0
1747829110.6959279,1747829110.696.jpg,0.112060546875,-0.15869140625,1.014404296875,1.9618320610687023,1.8778625954198473,1.0305343511450382,-174.8,6.44,0.92,27.73,26.47865425924749,0,0,1,100,1,100,90,85,0
1747829110.7962916,1747829110.796.jpg,0.09765625,-0.091064453125,1.03125,-1.8396946564885497,-0.5801526717557252,1.0458015267175573,-172.96,7.36,0.92,27.68294117647059,26.4722265908473,0,0,1,100,1,100,90,85,0
1747829110.9099293,1747829110.910.jpg,0.0888671875,-0.065185546875,1.00927734375,1.8015267175572518,0.3053435114503817,0.5190839694656488,-174.8,7.36,0.0,27.777058823529412,26.47865425924749,0,0,1,150,1,150,90,85,0
1747829111.0980625,1747829111.098.jpg,0.109130859375,-0.137451171875,1.060546875,1.8473282442748091,0.5648854961832062,1.1068702290076335,-175.72,6.44,0.0,27.777058823529412,26.47865425924749,0,0,1,150,1,150,90,85,0
1747829111.1988575,1747829111.199.jpg,0.09619140625,0.019287109375,0.9951171875,2.3282442748091605,-0.5725190839694656,1.3740458015267176,-173.88,6.44,0.0,27.73,26.47865425924749,0,0,1,150,1,150,90,85,0
1747829111.4004364,1747829111.400.jpg,0.098388671875,-0.137451171875,1.041015625,-0.648854961832061,0.8015267175572519,1.2366412213740459,-173.88,5.5200000000000005,0.92,27.68294117647059,26.47865425924749,0,0,1,150,1,150,90,85,0
1747829111.5016503,1747829111.502.jpg,0.099853515625,-0.093994140625,0.99609375,2.053435114503817,-0.732824427480916,1.2748091603053435,-175.72,6.44,0.0,27.73,26.48508167194974,0,0,1,150,1,150,90,85,0
1747829111.601633,1747829111.602.jpg,0.080810546875,-0.03857421875,1.015869140625,0.33587786259541985,-0.549618320610687,1.5190839694656488,-173.88,7.36,0.92,27.824117647058827,26.465798666681888,0,0,1,150,1,150,90,85,0
1747829111.8026788,1747829111.803.jpg,0.108642578125,-0.132080078125,1.05029296875,1.3511450381679388,-1.0381679389312977,1.6793893129770991,-173.88,7.36,0.92,27.68294117647059,26.465798666681888,0,0,1,150,1,150,90,85,0
1747829111.8551967,1747829111.855.jpg,0.099853515625,-0.094970703125,0.979736328125,-0.2366412213740458,0.3282442748091603,1.2595419847328244,-173.88,8.280000000000001,0.92,27.824117647058827,26.47865425924749,0,0,1,200,1,200,90,85,0
1747829112.1053507,1747829112.105.jpg,0.13427734375,-0.07421875,1.2158203125,-3.633587786259542,-1.9541984732824427,1.0305343511450382,-175.72,6.44,0.0,27.73,26.47865425924749,0,0,1,200,1,200,90,85,0
1747829112.2060766,1747829112.206.jpg,0.07958984375,-0.1201171875,1.027587890625,1.1450381679389312,2.312977099236641,0.8015267175572519,-172.96,7.36,0.0,27.777058823529412,26.48508167194974,0,0,1,200,1,200,90,85,0
1747829112.4073741,1747829112.407.jpg,0.087646484375,-0.061767578125,1.233154296875,0.5190839694656488,-1.183206106870229,0.21374045801526717,-172.96,6.44,0.92,27.73,26.47865425924749,0,0,1,200,1,200,90,85,0
1747829112.5087423,1747829112.509.jpg,0.14111328125,-0.19677734375,1.025390625,1.8396946564885497,-1.6030534351145038,1.816793893129771,-173.88,7.36,0.92,27.824117647058827,26.491508829021278,0,0,1,200,1,200,90,85,0
1747829112.6093495,1747829112.609.jpg,0.070068359375,-0.045166015625,1.18115234375,0.6335877862595419,-3.2519083969465647,1.3740458015267176,-172.96,8.280000000000001,0.92,27.68294117647059,26.48508167194974,0,0,1,200,1,200,90,85,0
1747829112.774487,1747829112.774.jpg,0.12646484375,-0.025146484375,1.1513671875,-0.22137404580152673,-3.3053435114503817,1.1145038167938932,-172.96,6.44,0.92,27.777058823529412,26.47865425924749,0,0,1,200,1,200,90,85,0
1747829112.854924,1747829112.855.jpg,0.07275390625,-0.076416015625,1.16064453125,0.48854961832061067,-0.48091603053435117,1.618320610687023,-173.88,5.5200000000000005,0.0,27.73,26.48508167194974,0,0,1,255,1,255,90,85,0
1747829113.1123762,1747829113.112.jpg,0.048095703125,-0.136474609375,1.0673828125,0.8320610687022901,3.5343511450381677,0.9389312977099237,-172.96,6.44,0.0,27.87117647058824,26.49793573052932,0,0,1,255,1,255,90,85,0
1747829113.212804,1747829113.213.jpg,0.082275390625,-0.1005859375,0.785400390625,2.1755725190839694,0.07633587786259542,0.9541984732824428,-173.88,6.44,0.92,27.824117647058827,26.491508829021278,0,0,1,255,1,255,90,85,0
1747829113.4138265,1747829113.414.jpg,0.08984375,-0.151611328125,0.94580078125,0.21374045801526717,3.8396946564885495,0.8549618320610687,-172.96,7.36,0.92,27.68294117647059,26.47865425924749,0,0,1,255,1,255,90,85,0
1747829113.5146687,1747829113.515.jpg,0.0849609375,-0.1494140625,0.9111328125,3.8702290076335877,0.5114503816793893,0.5343511450381679,-173.88,7.36,0.92,27.824117647058827,26.47865425924749,0,0,1,255,1,255,90,85,0
1747829113.6154606,1747829113.615.jpg,0.176025390625,-0.109130859375,1.042724609375,-0.9465648854961832,-4.511450381679389,1.0763358778625953,-173.88,8.280000000000001,0.92,27.68294117647059,26.49793573052932,0,0,1,255,1,255,90,85,0
1747829113.8168714,1747829113.817.jpg,0.071533203125,-0.093994140625,1.017578125,0.6106870229007634,-0.8702290076335878,0.9694656488549618,-174.8,7.36,0.92,27.777058823529412,26.48508167194974,0,0,1,255,1,255,90,85,0
1747829113.9174519,1747829113.917.jpg,0.104248046875,-0.02978515625,1.23046875,-1.2671755725190839,-1.1908396946564885,1.2213740458015268,-172.96,7.36,0.0,27.777058823529412,26.48508167194974,0,0,1,255,1,255,90,85,0
1747829113.9908545,1747829113.991.jpg,0.03369140625,-0.0703125,1.0126953125,-1.3893129770992367,5.061068702290076,0.6793893129770993,-174.8,6.44,0.92,27.73,26.49793573052932,0,0,1,255,1,255,90,85,0
1747829114.1187134,1747829114.119.jpg,0.060302734375,-0.09228515625,0.9833984375,1.7938931297709924,3.5267175572519083,0.549618320610687,-173.88,7.36,0.92,27.777058823529412,26.49793573052932,0,0,1,200,1,200,90,85,0
1747829114.203211,1747829114.203.jpg,0.149658203125,-0.110595703125,1.042236328125,1.1984732824427482,-0.2824427480916031,0.916030534351145,-173.88,7.36,0.92,27.87117647058824,26.47865425924749,0,0,1,150,1,150,90,85,0
1747829114.320294,1747829114.320.jpg,0.10498046875,-0.0732421875,1.067626953125,6.641221374045801,2.9923664122137406,0.2366412213740458,-172.04000000000002,6.44,0.92,27.824117647058827,26.491508829021278,0,0,1,150,1,150,90,85,0
1747829114.5212471,1747829114.521.jpg,0.079833984375,-0.066162109375,1.08984375,0.7480916030534351,-1.4198473282442747,0.916030534351145,-172.96,7.36,0.92,27.824117647058827,26.491508829021278,0,0,1,150,1,150,90,85,0
1747829114.6221972,1747829114.622.jpg,0.0869140625,-0.008544921875,1.114990234375,-1.816793893129771,-0.8091603053435115,0.7633587786259542,-174.8,7.36,0.92,27.824117647058827,26.48508167194974,0,0,1,150,1,150,90,85,0
1747829114.7237923,1747829114.724.jpg,0.1123046875,-0.06982421875,1.094482421875,2.4427480916030535,-1.8778625954198473,1.0076335877862594,-172.96,8.280000000000001,0.92,27.68294117647059,26.491508829021278,0,0,1,100,1,100,90,85,0
1747829114.8670516,1747829114.867.jpg,0.098388671875,-0.099365234375,1.13232421875,-0.5954198473282443,-0.8244274809160306,1.6030534351145038,-173.88,7.36,0.92,27.777058823529412,26.47865425924749,0,0,1,100,1,100,90,85,0
1747829115.0257647,1747829115.026.jpg,0.0888671875,-0.123291015625,1.068115234375,-0.16793893129770993,-1.1221374045801527,0.3282442748091603,-175.72,9.200000000000001,0.0,27.777058823529412,26.491508829021278,0,0,0,0,0,0,90,85,0
1747829115.1261103,1747829115.126.jpg,0.08349609375,-0.085205078125,1.03662109375,1.0610687022900764,0.007633587786259542,1.1297709923664123,-175.72,10.120000000000001,0.92,27.777058823529412,26.491508829021278,0,0,0,0,0,0,90,85,0
1747829115.327429,1747829115.327.jpg,0.106201171875,-0.0693359375,1.03955078125,0.6259541984732825,0.5572519083969466,1.3206106870229009,-175.72,9.200000000000001,1.84,27.73,26.49793573052932,0,0,0,0,0,0,90,85,0
1747829115.4280577,1747829115.428.jpg,0.09912109375,-0.0634765625,1.05322265625,0.3816793893129771,0.1297709923664122,1.3053435114503817,-175.72,10.120000000000001,0.92,27.824117647058827,26.491508829021278,0,0,0,0,0,0,90,85,0
1747829115.5284696,1747829115.528.jpg,0.1015625,-0.064697265625,1.053466796875,0.5038167938931297,-0.12213740458015267,1.2748091603053435,-175.72,10.120000000000001,0.92,27.777058823529412,26.491508829021278,0,0,0,0,0,0,90,85,0
1747829115.7296402,1747829115.730.jpg,0.098388671875,-0.0791015625,1.057861328125,0.549618320610687,-0.05343511450381679,1.2061068702290076,-175.72,10.120000000000001,0.92,27.777058823529412,26.491508829021278,0,0,0,0,0,0,90,85,0
1747829115.8302433,1747829115.830.jpg,0.094970703125,-0.06982421875,1.05810546875,0.5419847328244275,0.0,1.2366412213740459,-175.72,10.120000000000001,0.92,27.824117647058827,26.491508829021278,0,0,0,0,0,0,90,85,0
1747829115.9310462,1747829115.931.jpg,0.095947265625,-0.075927734375,1.075439453125,0.6641221374045801,0.07633587786259542,1.1374045801526718,-175.72,9.200000000000001,0.92,27.87117647058824,26.48508167194974,0,0,0,0,0,0,90,85,0
1747829116.132178,1747829116.132.jpg,0.096435546875,-0.076416015625,1.053466796875,0.29770992366412213,-0.022900763358778626,1.2366412213740459,-175.72,10.120000000000001,0.92,27.777058823529412,26.491508829021278,0,0,0,0,0,0,90,85,0
1747829116.2328467,1747829116.233.jpg,0.09619140625,-0.074462890625,1.056396484375,0.35877862595419846,0.1984732824427481,1.1145038167938932,-175.72,10.120000000000001,0.92,27.68294117647059,26.504362376541053,0,0,0,0,0,0,90,85,0
1747829116.3337536,1747829116.334.jpg,0.10400390625,-0.06982421875,1.057373046875,0.3053435114503817,0.015267175572519083,1.1984732824427482,-175.72,10.120000000000001,0.92,27.777058823529412,26.491508829021278,0,0,0,0,0,0,90,85,0
1747829116.5352688,1747829116.535.jpg,0.1015625,-0.075927734375,1.06298828125,0.4732824427480916,0.03816793893129771,1.2671755725190839,-175.72,10.120000000000001,0.92,27.68294117647059,26.491508829021278,0,0,0,0,0,0,90,85,0
1747829116.6357877,1747829116.636.jpg,0.100341796875,-0.072021484375,1.054931640625,0.5572519083969466,0.04580152671755725,1.1984732824427482,-175.72,9.200000000000001,0.92,27.777058823529412,26.491508829021278,0,0,0,0,0,0,90,85,0
1747829116.7363353,1747829116.736.jpg,0.103271484375,-0.072265625,1.054443359375,0.7022900763358778,0.20610687022900764,1.4122137404580153,-175.72,10.120000000000001,0.92,27.824117647058827,26.48508167194974,0,0,0,0,0,0,90,85,0
1747829116.9375114,1747829116.938.jpg,0.09912109375,-0.0751953125,1.053955078125,0.5801526717557252,-0.11450381679389313,1.183206106870229,-175.72,10.120000000000001,0.92,27.91823529411765,26.48508167194974,0,0,0,0,0,0,90,85,0
1747829117.0387328,1747829117.039.jpg,0.096435546875,-0.076416015625,1.05859375,0.6030534351145038,-0.022900763358778626,1.2442748091603053,-175.72,9.200000000000001,0.92,27.777058823529412,26.491508829021278,0,0,0,0,0,0,90,85,0
1747829117.1399746,1747829117.140.jpg,0.097412109375,-0.071044921875,1.05517578125,0.46564885496183206,-0.12213740458015267,1.0763358778625953,-175.72,9.200000000000001,0.92,27.73,26.491508829021278,0,0,0,0,0,0,90,85,0
1747829117.2500658,1747829117.250.jpg,0.103271484375,-0.077880859375,1.053955078125,0.7862595419847328,-0.015267175572519083,1.297709923664122,-175.72,10.120000000000001,0.92,27.777058823529412,26.491508829021278,0,0,1,100,2,100,90,85,0
1747829117.441591,1747829117.442.jpg,0.10791015625,-0.031982421875,0.9912109375,1.2900763358778626,0.7404580152671756,1.1374045801526718,-172.96,10.120000000000001,0.92,27.824117647058827,26.491508829021278,0,0,1,100,2,100,90,85,0
1747829117.5417228,1747829117.542.jpg,0.100341796875,-0.05712890625,1.057373046875,0.7022900763358778,0.9694656488549618,0.8854961832061069,-174.8,2.7600000000000002,0.92,27.824117647058827,26.491508829021278,0,0,1,100,2,100,90,85,0
1747829117.7425869,1747829117.743.jpg,0.098876953125,-0.087646484375,1.026123046875,1.9312977099236641,-1.8549618320610688,1.2366412213740459,-172.96,10.120000000000001,0.92,27.73,26.48508167194974,0,0,1,100,2,100,90,85,0
1747829117.8435378,1747829117.844.jpg,0.12109375,-0.041259765625,1.019287109375,-1.7709923664122138,0.6030534351145038,1.1221374045801527,-172.04000000000002,8.280000000000001,0.92,27.73,26.47865425924749,0,0,1,100,2,100,90,85,0
1747829117.9263387,1747829117.926.jpg,0.09375,-0.07861328125,1.03955078125,3.7938931297709924,-0.015267175572519083,1.6641221374045803,-175.72,3.68,0.0,27.824117647058827,26.49793573052932,0,0,1,150,2,150,90,85,0
1747829118.1453092,1747829118.145.jpg,0.10302734375,-0.022705078125,1.02197265625,-1.900763358778626,1.8549618320610688,1.1450381679389312,-172.04000000000002,7.36,0.92,27.87117647058824,26.491508829021278,0,0,1,150,2,150,90,85,0
1747829118.2455873,1747829118.246.jpg,0.076904296875,-0.1650390625,1.051513671875,1.465648854961832,0.183206106870229,0.8854961832061069,-173.88,4.6000000000000005,0.92,27.777058823529412,26.49793573052932,0,0,1,150,2,150,90,85,0
1747829118.3466065,1747829118.347.jpg,0.1123046875,-0.075927734375,1.038330078125,1.1755725190839694,-1.8625954198473282,1.6564885496183206,-173.88,7.36,0.92,27.777058823529412,26.491508829021278,0,0,1,150,2,150,90,85,0
1747829118.5483942,1747829118.548.jpg,0.107421875,-0.08154296875,1.06787109375,1.2290076335877862,-0.4732824427480916,0.9923664122137404,-172.96,4.6000000000000005,0.92,27.73,26.510788767123643,0,0,1,150,2,150,90,85,0
1747829118.6205866,1747829118.621.jpg,0.10693359375,-0.02734375,0.9892578125,0.33587786259541985,0.5725190839694656,1.7251908396946565,-174.8,5.5200000000000005,0.92,27.777058823529412,26.48508167194974,0,0,1,150,2,150,90,85,0
1747829118.7492032,1747829118.749.jpg,0.1328125,0.02392578125,1.10400390625,1.0687022900763359,-0.030534351145038167,1.7251908396946565,-172.96,8.280000000000001,1.84,27.824117647058827,26.49793573052932,0,0,1,200,2,200,90,85,0
1747829118.9505777,1747829118.951.jpg,0.138916015625,-0.1328125,0.9794921875,3.885496183206107,0.549618320610687,0.7099236641221374,-173.88,5.5200000000000005,0.92,27.777058823529412,26.504362376541053,0,0,1,200,2,200,90,85,0
1747829119.0511487,1747829119.051.jpg,0.134765625,-0.04931640625,1.312744140625,-0.3816793893129771,-1.0610687022900764,0.6870229007633588,-174.8,5.5200000000000005,0.92,27.777058823529412,26.48508167194974,0,0,1,200,2,200,90,85,0
1747829119.1517632,1747829119.152.jpg,0.0634765625,-0.020751953125,1.03076171875,2.5114503816793894,2.015267175572519,1.6717557251908397,-172.96,7.36,0.92,27.777058823529412,26.491508829021278,0,0,1,200,2,200,90,85,0
1747829119.2422597,1747829119.242.jpg,0.097412109375,-0.057373046875,1.20849609375,-1.6793893129770991,-0.6641221374045801,1.1297709923664123,-174.8,4.6000000000000005,0.0,27.777058823529412,26.49793573052932,0,0,1,100,2,100,90,85,0
1747829119.4532766,1747829119.453.jpg,0.121337890625,-0.055908203125,1.167724609375,-0.366412213740458,-1.8473282442748091,1.4045801526717556,-174.8,9.200000000000001,0.92,27.87117647058824,26.47865425924749,0,0,1,100,2,100,90,85,0
1747829119.5283942,1747829119.528.jpg,0.139404296875,-0.054443359375,1.06884765625,0.11450381679389313,1.1984732824427482,1.0305343511450382,-174.8,10.120000000000001,0.92,27.777058823529412,26.504362376541053,0,0,0,0,0,0,90,85,0
1747829119.7557662,1747829119.756.jpg,0.0947265625,-0.0927734375,1.04736328125,0.7480916030534351,-0.15267175572519084,0.916030534351145,-175.72,10.120000000000001,0.92,27.73,26.504362376541053,0,0,0,0,0,0,90,85,0
1747829119.8566077,1747829119.857.jpg,0.09716796875,-0.088134765625,1.0556640625,0.3893129770992366,-0.40458015267175573,1.099236641221374,-175.72,10.120000000000001,0.0,27.824117647058827,26.510788767123643,0,0,0,0,0,0,90,85,0
1747829119.957585,1747829119.958.jpg,0.10888671875,-0.0791015625,1.05322265625,0.6870229007633588,-0.09923664122137404,1.0687022900763359,-175.72,10.120000000000001,0.0,27.777058823529412,26.504362376541053,0,0,0,0,0,0,90,85,0
1747829120.1583138,1747829120.158.jpg,0.106201171875,-0.074462890625,1.05908203125,0.48854961832061067,0.13740458015267176,1.16793893129771,-175.72,10.120000000000001,0.0,27.73,26.504362376541053,0,0,0,0,0,0,90,85,0
1747829120.361034,1747829120.361.jpg,0.10400390625,-0.0732421875,1.056640625,0.5648854961832062,1.9389312977099236,1.4427480916030535,-175.72,10.120000000000001,0.92,27.824117647058827,26.510788767123643,0,0,0,0,0,0,90,85,0
1747829120.5600135,1747829120.560.jpg,0.099853515625,-0.074462890625,1.0546875,0.648854961832061,0.11450381679389313,1.0687022900763359,-175.72,11.040000000000001,0.92,27.73,26.504362376541053,0,0,0,0,0,0,90,85,0
1747829120.6621284,1747829120.662.jpg,0.10595703125,-0.077880859375,1.082763671875,1.1145038167938932,-0.8473282442748091,1.1908396946564885,-175.72,10.120000000000001,0.0,27.777058823529412,26.49793573052932,0,0,0,0,0,0,90,65,0
1747829120.862386,1747829120.862.jpg,0.098388671875,-0.067626953125,1.000244140625,0.6106870229007634,0.7480916030534351,1.2900763358778626,-175.72,10.120000000000001,0.0,27.87117647058824,26.504362376541053,0,0,0,0,0,0,90,55,0
1747829120.929353,1747829120.929.jpg,0.09716796875,-0.072998046875,1.084228515625,0.46564885496183206,-0.2824427480916031,1.1068702290076335,-175.72,10.120000000000001,0.0,27.91823529411765,26.504362376541053,0,0,0,0,0,0,90,45,0
1747829121.0636275,1747829121.064.jpg,0.085693359375,-0.103271484375,1.09375,1.213740458015267,-0.9847328244274809,1.0610687022900764,-175.72,10.120000000000001,0.0,27.777058823529412,26.510788767123643,0,0,0,0,0,0,90,35,0
1747829121.2649148,1747829121.265.jpg,0.109130859375,-0.081787109375,1.0634765625,0.3511450381679389,0.09923664122137404,1.3587786259541985,-175.72,10.120000000000001,0.0,27.91823529411765,26.504362376541053,0,0,0,0,0,0,90,35,0
1747829121.3661332,1747829121.366.jpg,0.099609375,-0.075927734375,1.06689453125,0.44274809160305345,-0.04580152671755725,1.213740458015267,-175.72,10.120000000000001,0.0,27.73,26.510788767123643,0,0,0,0,0,0,90,35,0
1747829121.4660828,1747829121.466.jpg,0.093017578125,-0.069580078125,1.0751953125,0.5343511450381679,0.06870229007633588,1.1755725190839694,-175.72,10.120000000000001,0.92,27.777058823529412,26.504362376541053,0,0,0,0,0,0,90,35,0
1747829121.6016288,1747829121.602.jpg,0.10498046875,-0.08251953125,1.02783203125,1.1603053435114503,0.4122137404580153,1.1755725190839694,-175.72,10.120000000000001,0.92,27.777058823529412,26.517214902344243,0,0,0,0,0,0,90,55,0
1747829121.7015512,1747829121.702.jpg,0.091552734375,-0.08544921875,1.059814453125,1.0381679389312977,-0.9465648854961832,1.1603053435114503,-175.72,10.120000000000001,0.92,27.73,26.517214902344243,0,0,0,0,0,0,90,85,0
1747829121.9693913,1747829121.969.jpg,0.103515625,-0.07275390625,1.055419921875,-0.015267175572519083,0.015267175572519083,1.297709923664122,-175.72,10.120000000000001,0.0,27.777058823529412,26.504362376541053,0,0,0,0,0,0,90,85,0
1747829122.070648,1747829122.071.jpg,0.09619140625,-0.072998046875,1.0517578125,0.9007633587786259,-0.0916030534351145,1.3206106870229009,-175.72,10.120000000000001,0.0,27.777058823529412,26.510788767123643,0,0,0,0,0,0,90,85,0
1747829122.2723935,1747829122.272.jpg,0.098876953125,-0.072265625,1.060546875,0.6641221374045801,0.022900763358778626,1.1297709923664123,-175.72,10.120000000000001,0.92,27.777058823529412,26.510788767123643,0,0,0,0,0,0,90,85,0
1747829122.373226,1747829122.373.jpg,0.09716796875,-0.075439453125,1.062255859375,0.40458015267175573,0.09923664122137404,1.2900763358778626,-176.64000000000001,10.120000000000001,0.92,27.73,26.504362376541053,0,0,0,0,0,0,90,85,0
1747829122.4742386,1747829122.474.jpg,0.0908203125,-0.07958984375,1.0634765625,0.5648854961832062,-0.015267175572519083,1.1755725190839694,-175.72,10.120000000000001,0.92,27.777058823529412,26.510788767123643,0,0,0,0,0,0,90,85,0
1747829122.5904,1747829122.590.jpg,0.081787109375,-0.080810546875,1.047119140625,0.7786259541984732,-0.13740458015267176,1.3206106870229009,-175.72,10.120000000000001,0.0,27.68294117647059,26.504362376541053,0,0,0,0,0,0,90,85,0
1747829122.6882439,1747829122.688.jpg,0.087890625,-0.060546875,1.1064453125,-0.4580152671755725,0.16030534351145037,1.297709923664122,-173.88,6.44,0.0,27.73,26.517214902344243,0,0,0,0,0,0,90,65,0
1747829122.8090432,1747829122.809.jpg,0.09912109375,-0.090087890625,1.00244140625,1.0076335877862594,0.9618320610687023,0.9312977099236641,-175.72,10.120000000000001,0.0,27.777058823529412,26.52364078226997,0,0,0,0,0,0,90,55,0
1747829122.9120169,1747829122.912.jpg,0.093017578125,-0.087158203125,1.069580078125,0.4580152671755725,0.022900763358778626,1.183206106870229,-175.72,9.200000000000001,0.92,27.824117647058827,26.517214902344243,0,0,0,0,0,0,90,45,0
1747829122.9980695,1747829122.998.jpg,0.09326171875,-0.0712890625,1.08056640625,-0.16030534351145037,-0.4351145038167939,1.3053435114503817,-175.72,10.120000000000001,0.0,27.824117647058827,26.517214902344243,0,0,0,0,0,0,90,35,0
1747829123.2799268,1747829123.280.jpg,0.095703125,-0.070556640625,1.053466796875,0.5877862595419847,-0.061068702290076333,1.1068702290076335,-175.72,10.120000000000001,0.0,27.824117647058827,26.504362376541053,0,0,0,0,0,0,90,35,0
1747829123.3810697,1747829123.381.jpg,0.09521484375,-0.072265625,1.033203125,0.8015267175572519,1.8702290076335877,1.1068702290076335,-175.72,10.120000000000001,0.0,27.777058823529412,26.504362376541053,0,0,0,0,0,0,90,35,0
1747829123.4811602,1747829123.481.jpg,0.095458984375,-0.07275390625,1.072509765625,0.7251908396946565,1.8015267175572518,1.1755725190839694,-175.72,11.040000000000001,0.0,27.777058823529412,26.510788767123643,0,0,0,0,0,0,90,35,0
1747829123.6052792,1747829123.605.jpg,0.09423828125,-0.060302734375,1.031005859375,1.0534351145038168,1.4885496183206106,1.083969465648855,-174.8,9.200000000000001,0.92,27.73,26.510788767123643,0,0,0,0,0,0,90,45,0
1747829123.7093616,1747829123.709.jpg,0.09375,-0.07568359375,1.1083984375,0.6793893129770993,-0.9465648854961832,1.4427480916030535,-174.8,10.120000000000001,0.92,27.73,26.504362376541053,0,0,0,0,0,0,90,55,0
1747829123.7989688,1747829123.799.jpg,0.10888671875,-0.08447265625,1.078857421875,0.7862595419847328,-0.04580152671755725,1.1068702290076335,-174.8,9.200000000000001,0.0,27.777058823529412,26.52364078226997,0,0,0,0,0,0,90,85,0
1747829124.0853543,1747829124.085.jpg,0.108154296875,-0.069091796875,1.06689453125,0.4580152671755725,0.29770992366412213,1.213740458015267,-175.72,10.120000000000001,0.92,27.87117647058824,26.504362376541053,0,0,0,0,0,0,90,85,0
1747829124.1855335,1747829124.186.jpg,0.1015625,-0.069091796875,1.03564453125,0.4961832061068702,-0.0916030534351145,1.3282442748091603,-175.72,11.040000000000001,0.92,27.777058823529412,26.49793573052932,0,0,0,0,0,0,90,85,0
1747829124.285986,1747829124.286.jpg,0.1015625,-0.06494140625,1.05810546875,0.6183206106870229,0.015267175572519083,1.0610687022900764,-175.72,11.040000000000001,0.92,27.824117647058827,26.517214902344243,0,0,0,0,0,0,90,85,0
1747829124.4874222,1747829124.487.jpg,0.10009765625,-0.0634765625,1.06005859375,0.8244274809160306,-0.183206106870229,1.0763358778625953,-175.72,11.040000000000001,0.92,27.91823529411765,26.504362376541053,0,0,0,0,0,0,90,85,0
1747829124.587975,1747829124.588.jpg,0.106201171875,-0.083251953125,1.05419921875,0.7862595419847328,1.8778625954198473,1.099236641221374,-175.72,11.040000000000001,0.92,27.777058823529412,26.517214902344243,0,0,0,0,0,0,90,85,0
1747829124.6884217,1747829124.688.jpg,0.099609375,-0.07177734375,1.064453125,0.6793893129770993,0.16030534351145037,1.1526717557251909,-175.72,11.040000000000001,0.92,27.777058823529412,26.517214902344243,0,0,0,0,0,0,90,85,0
